SubjID	Exp_trial	Condition	Soundfile	Target	Trigger	ISI	Event_start	Event_end	Event_duration	Response	RT
test	 1	 static	 static	 0	 1	 1.814724	 0.003741	 2.973252	 2.968830	 	 
test	 2	 static	 static	 0	 1	 1.905792	 2.978997	 5.896245	 2.916654	 	 
test	 3	 motion	 mot_LRRL	 0	 2	 1.126987	 5.897366	 8.034985	 2.137377	 	 
test	 4	 motion	 mot_LRRL	 0	 2	 1.913376	 8.036306	 10.960846	 2.924137	 	 
test	 5	 motion	 mot_RLLR	 0	 3	 1.632359	 10.961955	 13.607697	 2.643959	 	 
test	 6	 motion	 mot_RLLR	 0	 3	 1.097540	 13.610710	 15.719429	 2.108583	 	 
test	 7	 motion	 mot_LRRL_T	 1	 5	 1.278498	 15.722880	 19.012723	 3.289423	 	 
test	 8	 static	 static	 0	 1	 1.546882	 19.013121	 21.570772	 2.557507	 	 
test	 9	 static	 static	 0	 1	 1.957507	 21.571122	 24.540339	 2.969050	 	 
test	 10	 motion	 mot_LRRL	 0	 2	 1.964889	 24.540656	 27.516193	 2.975434	 	 
test	 11	 motion	 mot_LRRL	 0	 2	 1.157613	 27.516550	 29.684872	 2.168192	 	 
test	 12	 motion	 mot_RLLR	 0	 3	 1.970593	 29.685229	 32.666694	 2.981326	 	 
test	 13	 motion	 mot_LRRL	 0	 2	 1.957167	 32.667020	 35.635170	 2.968046	 	 
test	 14	 static	 static	 0	 1	 1.485376	 35.635492	 38.132263	 2.496667	 	 
test	 15	 static	 static	 0	 1	 1.800280	 38.132659	 40.943776	 2.810981	 	 
test	 16	 motion	 mot_RLLR	 0	 3	 1.141886	 40.944100	 43.096506	 2.152304	 	 
test	 17	 motion	 mot_RLLR	 0	 3	 1.421761	 43.096867	 45.529597	 2.432595	 	 
test	 18	 static	 static	 0	 1	 1.915736	 45.530035	 48.456999	 2.926856	 	 
test	 19	 motion	 mot_RLLR	 0	 3	 1.792207	 48.459684	 51.262141	 2.802311	 	 
test	 20	 motion	 mot_RLLR_T	 1	 6	 1.959492	 51.262495	 55.233828	 3.971007	 	 
test	 21	 static	 static	 0	 1	 1.655741	 55.234153	 57.900660	 2.666397	 	 
test	 22	 motion	 mot_RLLR	 0	 3	 1.035712	 57.901068	 59.948205	 2.046999	 	 
test	 23	 static	 static	 0	 1	 1.849129	 59.948594	 62.808704	 2.860010	 	 
test	 24	 static	 static	 0	 1	 1.933993	 62.809075	 65.753630	 2.944408	 	 
test	 25	 static	 static_T	 1	 4	 1.678735	 65.753944	 69.444573	 3.690392	 	 
test	 26	 static	 static	 0	 1	 1.757740	 69.444973	 72.213366	 2.768250	 	 
test	 27	 motion	 mot_LRRL	 0	 2	 1.743132	 72.213729	 74.967180	 2.753326	 	 
test	 28	 motion	 mot_RLLR	 0	 3	 1.392227	 74.967507	 77.370359	 2.402757	 	 
test	 29	 motion	 mot_RLLR	 0	 3	 1.655478	 77.370806	 80.037869	 2.666932	 	 
test	 30	 motion	 mot_LRRL	 0	 2	 1.171187	 80.038240	 82.220085	 2.181718	 	 
test	 31	 static	 static	 0	 1	 1.706046	 82.220443	 84.937712	 2.717135	 	 
test	 32	 static	 static	 0	 1	 1.031833	 84.938090	 86.981502	 2.043223	 	 
test	 33	 motion	 mot_LRRL	 0	 2	 1.276923	 86.981917	 89.269639	 2.287593	 	 
test	 34	 static	 static	 0	 1	 1.046171	 89.269993	 91.326763	 2.056642	 	 
test	 35	 static	 static	 0	 1	 1.097132	 91.327146	 93.435450	 2.108210	 	 
test	 36	 static	 static_T	 1	 4	 1.823458	 93.435841	 97.269994	 3.833899	 	 
test	 37	 static	 static	 0	 1	 1.694829	 97.270371	 99.975488	 2.704974	 	 
test	 38	 static	 static	 0	 1	 1.317099	 99.975882	 102.303632	 2.327612	 	 
test	 39	 static	 static	 0	 1	 1.950222	 102.304288	 105.265528	 2.961086	 	 
test	 40	 motion	 mot_LRRL	 0	 2	 1.034446	 105.265955	 107.311910	 2.045793	 	 
test	 41	 motion	 mot_RLLR	 0	 3	 1.438744	 107.314630	 109.764377	 2.449604	 	 
test	 42	 motion	 mot_LRRL	 0	 2	 1.381558	 109.764843	 112.157702	 2.392715	 	 
test	 43	 motion	 mot_LRRL	 0	 2	 1.765517	 112.158082	 114.934739	 2.776526	 	 
test	 44	 motion	 mot_LRRL	 0	 2	 1.795200	 114.935118	 117.741796	 2.806503	 	 
test	 45	 static	 static	 0	 1	 1.186873	 117.742207	 119.940113	 2.197774	 	 
test	 46	 motion	 mot_RLLR	 0	 3	 1.489764	 119.940469	 122.441265	 2.500671	 	 
test	 47	 static	 static	 0	 1	 1.445586	 122.441657	 124.898534	 2.456751	 	 
test	 48	 motion	 mot_RLLR	 0	 3	 1.646313	 124.898959	 127.556895	 2.657801	 	 
test	 49	 motion	 mot_RLLR	 0	 3	 1.709365	 127.557251	 130.277472	 2.720097	 	 
test	 50	 static	 static	 0	 1	 1.754687	 130.277824	 133.044399	 2.766436	 	 
test	 51	 static	 static	 0	 1	 1.276025	 133.044754	 135.331967	 2.287081	 	 
test	 52	 motion	 mot_RLLR	 0	 3	 1.679703	 135.332349	 138.022602	 2.690115	 	 
test	 53	 motion	 mot_LRRL	 0	 2	 1.655098	 138.023047	 140.689200	 2.666056	 	 
test	 54	 static	 static	 0	 1	 1.162612	 140.689556	 142.863198	 2.173510	 	 
test	 55	 static	 static	 0	 1	 1.118998	 142.863564	 144.993180	 2.129482	 	 
test	 56	 static	 static	 0	 1	 1.498364	 144.993555	 147.502692	 2.508982	 	 
test	 57	 motion	 mot_LRRL	 0	 2	 1.959744	 147.503086	 150.473541	 2.970323	 	 
test	 58	 static	 static	 0	 1	 1.340386	 150.473896	 152.824941	 2.350918	 	 
test	 59	 motion	 mot_LRRL	 0	 2	 1.585268	 152.825454	 155.421571	 2.596013	 	 
test	 60	 static	 static_T	 1	 4	 1.223812	 155.421928	 158.656879	 3.234715	 	 
test	 61	 static	 static	 0	 1	 1.751267	 158.657460	 161.419657	 2.762012	 	 
test	 62	 static	 static	 0	 1	 1.255095	 161.420008	 163.685365	 2.265229	 	 
test	 63	 static	 static_T	 1	 4	 1.505957	 163.685719	 167.203482	 3.517486	 	 
test	 64	 static	 static	 0	 1	 1.699077	 167.203837	 169.914153	 2.710183	 	 
test	 65	 motion	 mot_RLLR	 0	 3	 1.890903	 169.914586	 172.816748	 2.902007	 	 
test	 66	 motion	 mot_LRRL	 0	 2	 1.959291	 172.817099	 175.787439	 2.970244	 	 
test	 67	 motion	 mot_LRRL_T	 1	 5	 1.547216	 175.787925	 179.346208	 3.557989	 	 
test	 68	 motion	 mot_RLLR	 0	 3	 1.138624	 179.346570	 181.497125	 2.150352	 	 
test	 69	 static	 static	 0	 1	 1.149294	 181.497493	 183.658076	 2.160407	 	 
test	 70	 static	 static	 0	 1	 1.257508	 183.658433	 185.926904	 2.268338	 	 
test	 71	 motion	 mot_RLLR	 0	 3	 1.840717	 185.927237	 188.778555	 2.851225	 	 
test	 72	 motion	 mot_LRRL	 0	 2	 1.254282	 188.778884	 191.044054	 2.265068	 	 
test	 73	 motion	 mot_RLLR	 0	 3	 1.814285	 191.044405	 193.869381	 2.824852	 	 
test	 74	 static	 static	 0	 1	 1.243525	 193.869758	 196.124838	 2.254983	 	 
test	 75	 static	 static	 0	 1	 1.929264	 196.128016	 199.068863	 2.940706	 	 
test	 76	 static	 static	 0	 1	 1.349984	 199.069241	 201.430509	 2.361096	 	 
test	 77	 motion	 mot_LRRL	 0	 2	 1.196595	 201.430865	 203.638744	 2.207704	 	 
test	 78	 static	 static	 0	 1	 1.251084	 203.639057	 205.901706	 2.262506	 	 
test	 79	 static	 static	 0	 1	 1.616045	 205.902067	 208.528767	 2.626558	 	 
test	 80	 motion	 mot_RLLR_T	 1	 6	 1.473289	 208.529250	 212.013923	 3.484448	 	 
test	 81	 static	 static	 0	 1	 1.351660	 212.014337	 214.377359	 2.362876	 	 
test	 82	 static	 static_T	 1	 4	 1.830829	 214.377786	 218.219532	 3.841507	 	 
test	 83	 motion	 mot_LRRL	 0	 2	 1.585264	 218.219972	 220.815807	 2.595700	 	 
test	 84	 static	 static	 0	 1	 1.549724	 220.816141	 223.376699	 2.560459	 	 
test	 85	 motion	 mot_LRRL	 0	 2	 1.917194	 223.377060	 226.305153	 2.927969	 	 
test	 86	 motion	 mot_RLLR	 0	 3	 1.285839	 226.308150	 228.604418	 2.296100	 	 
test	 87	 static	 static	 0	 1	 1.757200	 228.604838	 231.372949	 2.767985	 	 
test	 88	 static	 static	 0	 1	 1.753729	 231.373358	 234.138072	 2.764586	 	 
test	 89	 motion	 mot_RLLR	 0	 3	 1.380446	 234.138485	 236.529338	 2.390727	 	 
test	 90	 static	 static	 0	 1	 1.567822	 236.529765	 239.108862	 2.579001	 	 
test	 91	 static	 static	 0	 1	 1.075854	 239.109355	 241.196131	 2.086640	 	 
test	 92	 motion	 mot_LRRL	 0	 2	 1.053950	 241.196616	 243.261587	 2.064835	 	 
test	 93	 static	 static	 0	 1	 1.530798	 243.262060	 245.804500	 2.542305	 	 
test	 94	 motion	 mot_RLLR	 0	 3	 1.779167	 245.805013	 248.595402	 2.790278	 	 
test	 95	 static	 static	 0	 1	 1.934011	 248.595783	 251.540486	 2.944601	 	 
test	 96	 motion	 mot_RLLR	 0	 3	 1.129906	 251.541033	 253.682194	 2.141016	 	 
test	 97	 motion	 mot_LRRL_T	 1	 5	 1.568824	 253.682569	 257.262631	 3.579903	 	 
test	 98	 static	 static	 0	 1	 1.469391	 257.263071	 259.743575	 2.480359	 	 
test	 99	 motion	 mot_LRRL	 0	 2	 1.011902	 259.743999	 261.766409	 2.022284	 	 
test	 100	 static	 static	 0	 1	 1.337123	 261.766818	 264.114282	 2.347337	 	 
test	 101	 motion	 mot_RLLR	 0	 3	 1.162182	 264.114697	 266.287950	 2.173127	 	 
test	 102	 static	 static	 0	 1	 1.794285	 266.288380	 269.093090	 2.804576	 	 
test	 103	 static	 static	 0	 1	 1.311215	 269.093533	 271.416313	 2.322613	 	 
test	 104	 motion	 mot_LRRL	 0	 2	 1.528533	 271.416822	 273.956573	 2.539625	 	 
test	 105	 motion	 mot_RLLR	 0	 3	 1.165649	 273.956970	 276.133360	 2.176264	 	 
test	 106	 static	 static	 0	 1	 1.601982	 276.133753	 278.746416	 2.612563	 	 
test	 107	 motion	 mot_LRRL	 0	 2	 1.262971	 278.746773	 281.020997	 2.274129	 	 
test	 108	 motion	 mot_RLLR	 0	 3	 1.654079	 281.021495	 283.686939	 2.665307	 	 
test	 109	 static	 static	 0	 1	 1.689215	 283.687343	 286.388594	 2.701077	 	 
test	 110	 static	 static_T	 1	 4	 1.748152	 286.389030	 290.148238	 3.759032	 	 
test	 111	 static	 static	 0	 1	 1.450542	 290.148620	 292.611006	 2.462243	 	 
test	 112	 static	 static	 0	 1	 1.083821	 292.611482	 294.706549	 2.094935	 	 
test	 113	 static	 static	 0	 1	 1.228977	 294.707002	 296.947646	 2.240509	 	 
test	 114	 motion	 mot_RLLR_T	 1	 6	 1.913337	 296.948071	 300.872003	 3.923698	 	 
test	 115	 motion	 mot_LRRL	 0	 2	 1.152378	 300.872419	 303.035292	 2.162739	 	 
test	 116	 static	 static	 0	 1	 1.825817	 303.035702	 305.872357	 2.836521	 	 
test	 117	 motion	 mot_LRRL	 0	 2	 1.538342	 305.872676	 308.421624	 2.548855	 	 
test	 118	 motion	 mot_LRRL	 0	 2	 1.996135	 308.422037	 311.428947	 3.006778	 	 
test	 119	 motion	 mot_RLLR	 0	 3	 1.078176	 311.429320	 313.518638	 2.089224	 	 
test	 120	 motion	 mot_RLLR	 0	 3	 1.442678	 313.519064	 315.972964	 2.453767	 	 
